build	computer.platform	date	time	subject	group	sessionid	blockcode	blocknum	trialcode	trialnum	congruency	stimulusitem1	response	responseCategory	correct	latency	congruentcorrect	incongruentcorrect
6.3.1	win	2020-12-16	15:36:03	VP21	6	6.3	stroop	1	redincongruent	2	2	green	32	red	1	663	nan	1
6.3.1	win	2020-12-16	15:36:03	VP21	6	6.3	stroop	1	bluecongruent	4	1	blue	36	blue	1	479	1	1
6.3.1	win	2020-12-16	15:36:03	VP21	6	6.3	stroop	1	redcongruent	6	1	red	32	red	1	417	2	1
6.3.1	win	2020-12-16	15:36:03	VP21	6	6.3	stroop	1	blackincongruent	8	2	red	36	blue	0	333	2	1
6.3.1	win	2020-12-16	15:36:03	VP21	6	6.3	stroop	1	greencontrol	10	3	black	33	green	1	576	2	1
6.3.1	win	2020-12-16	15:36:03	VP21	6	6.3	stroop	1	blackcongruent	12	1	black	37	black	1	467	3	1
6.3.1	win	2020-12-16	15:36:03	VP21	6	6.3	stroop	1	blackcontrol	14	3	blue	37	black	1	384	3	1
6.3.1	win	2020-12-16	15:36:03	VP21	6	6.3	stroop	1	greencongruent	16	1	green	36	blue	0	424	3	1
6.3.1	win	2020-12-16	15:36:03	VP21	6	6.3	stroop	1	redcontrol	18	3	blue	32	red	1	723	3	1
6.3.1	win	2020-12-16	15:36:03	VP21	6	6.3	stroop	1	blackincongruent	20	2	blue	37	black	1	540	3	2
6.3.1	win	2020-12-16	15:36:03	VP21	6	6.3	stroop	1	greenincongruent	22	2	red	36	blue	0	584	3	2
6.3.1	win	2020-12-16	15:36:03	VP21	6	6.3	stroop	1	greencongruent	24	1	green	33	green	1	497	4	2
6.3.1	win	2020-12-16	15:36:03	VP21	6	6.3	stroop	1	blueincongruent	26	2	green	36	blue	1	452	4	3
6.3.1	win	2020-12-16	15:36:03	VP21	6	6.3	stroop	1	blueincongruent	28	2	red	36	blue	1	438	4	4
6.3.1	win	2020-12-16	15:36:03	VP21	6	6.3	stroop	1	greencontrol	30	3	blue	32	red	0	413	4	4
6.3.1	win	2020-12-16	15:36:03	VP21	6	6.3	stroop	1	blackcongruent	32	1	black	37	black	1	395	5	4
6.3.1	win	2020-12-16	15:36:03	VP21	6	6.3	stroop	1	redincongruent	34	2	blue	32	red	1	534	5	5
6.3.1	win	2020-12-16	15:36:03	VP21	6	6.3	stroop	1	bluecontrol	36	3	red	36	blue	1	529	5	5
6.3.1	win	2020-12-16	15:36:03	VP21	6	6.3	stroop	1	greencontrol	38	3	red	33	green	1	355	5	5
6.3.1	win	2020-12-16	15:36:03	VP21	6	6.3	stroop	1	blackincongruent	40	2	green	37	black	1	360	5	6
6.3.1	win	2020-12-16	15:36:03	VP21	6	6.3	stroop	1	greencongruent	42	1	green	33	green	1	550	6	6
6.3.1	win	2020-12-16	15:36:03	VP21	6	6.3	stroop	1	blackcongruent	44	1	black	37	black	1	410	7	6
6.3.1	win	2020-12-16	15:36:03	VP21	6	6.3	stroop	1	blackcongruent	46	1	black	36	blue	0	355	7	6
6.3.1	win	2020-12-16	15:36:03	VP21	6	6.3	stroop	1	greenincongruent	48	2	black	33	green	1	433	7	7
6.3.1	win	2020-12-16	15:36:03	VP21	6	6.3	stroop	1	bluecontrol	50	3	green	36	blue	1	539	7	7
6.3.1	win	2020-12-16	15:36:03	VP21	6	6.3	stroop	1	greencontrol	52	3	blue	33	green	1	514	7	7
6.3.1	win	2020-12-16	15:36:03	VP21	6	6.3	stroop	1	greencongruent	54	1	green	33	green	1	333	8	7
6.3.1	win	2020-12-16	15:36:03	VP21	6	6.3	stroop	1	redcongruent	56	1	red	32	red	1	405	9	7
6.3.1	win	2020-12-16	15:36:03	VP21	6	6.3	stroop	1	redcontrol	58	3	black	32	red	1	527	9	7
6.3.1	win	2020-12-16	15:36:03	VP21	6	6.3	stroop	1	blueincongruent	60	2	black	37	black	0	456	9	7
6.3.1	win	2020-12-16	15:36:03	VP21	6	6.3	stroop	1	redincongruent	62	2	black	32	red	1	527	9	8
6.3.1	win	2020-12-16	15:36:03	VP21	6	6.3	stroop	1	bluecongruent	64	1	blue	36	blue	1	490	10	8
6.3.1	win	2020-12-16	15:36:03	VP21	6	6.3	stroop	1	blueincongruent	66	2	black	36	blue	1	307	10	9
6.3.1	win	2020-12-16	15:36:03	VP21	6	6.3	stroop	1	redcongruent	68	1	red	33	green	0	427	10	9
6.3.1	win	2020-12-16	15:36:03	VP21	6	6.3	stroop	1	redcontrol	70	3	green	32	red	1	521	10	9
6.3.1	win	2020-12-16	15:36:03	VP21	6	6.3	stroop	1	bluecontrol	72	3	black	36	blue	1	560	10	9
6.3.1	win	2020-12-16	15:36:03	VP21	6	6.3	stroop	1	greenincongruent	74	2	blue	33	green	1	772	10	10
6.3.1	win	2020-12-16	15:36:03	VP21	6	6.3	stroop	1	redcontrol	76	3	blue	32	red	1	516	10	10
6.3.1	win	2020-12-16	15:36:03	VP21	6	6.3	stroop	1	greenincongruent	78	2	black	32	red	0	460	10	10
