build	computer.platform	date	time	subject	group	sessionid	blockcode	blocknum	trialcode	trialnum	congruency	stimulusitem1	response	responseCategory	correct	latency	congruentcorrect	incongruentcorrect
6.3.1	win	2020-12-16	15:27:46	VP21	6	6.1	stroop	1	bluecongruent	2	1	blue	36	blue	1	737	1	nan
6.3.1	win	2020-12-16	15:27:46	VP21	6	6.1	stroop	1	blackincongruent	4	2	red	37	black	1	620	1	1
6.3.1	win	2020-12-16	15:27:46	VP21	6	6.1	stroop	1	greencongruent	6	1	green	36	blue	0	517	1	1
6.3.1	win	2020-12-16	15:27:46	VP21	6	6.1	stroop	1	bluecontrol	8	3	red	36	blue	1	744	1	1
6.3.1	win	2020-12-16	15:27:46	VP21	6	6.1	stroop	1	bluecongruent	10	1	blue	36	blue	1	388	2	1
6.3.1	win	2020-12-16	15:27:46	VP21	6	6.1	stroop	1	blackcongruent	12	1	black	37	black	1	464	3	1
6.3.1	win	2020-12-16	15:27:46	VP21	6	6.1	stroop	1	bluecongruent	14	1	blue	36	blue	1	409	4	1
6.3.1	win	2020-12-16	15:27:46	VP21	6	6.1	stroop	1	greencongruent	16	1	green	33	green	1	542	5	1
6.3.1	win	2020-12-16	15:27:46	VP21	6	6.1	stroop	1	blueincongruent	18	2	red	36	blue	1	340	5	2
6.3.1	win	2020-12-16	15:27:46	VP21	6	6.1	stroop	1	redcontrol	20	3	green	32	red	1	510	5	2
6.3.1	win	2020-12-16	15:27:46	VP21	6	6.1	stroop	1	greencontrol	22	3	black	33	green	1	370	5	2
6.3.1	win	2020-12-16	15:27:46	VP21	6	6.1	stroop	1	redincongruent	24	2	black	32	red	1	604	5	3
6.3.1	win	2020-12-16	15:27:46	VP21	6	6.1	stroop	1	blueincongruent	26	2	black	36	blue	1	492	5	4
6.3.1	win	2020-12-16	15:27:46	VP21	6	6.1	stroop	1	blackincongruent	28	2	green	37	black	1	528	5	5
6.3.1	win	2020-12-16	15:27:46	VP21	6	6.1	stroop	1	bluecongruent	30	1	blue	36	blue	1	500	6	5
6.3.1	win	2020-12-16	15:27:46	VP21	6	6.1	stroop	1	redincongruent	32	2	green	32	red	1	772	6	6
6.3.1	win	2020-12-16	15:27:46	VP21	6	6.1	stroop	1	greencontrol	34	3	blue	33	green	1	437	6	6
6.3.1	win	2020-12-16	15:27:46	VP21	6	6.1	stroop	1	redcongruent	36	1	red	32	red	1	495	7	6
6.3.1	win	2020-12-16	15:27:46	VP21	6	6.1	stroop	1	redincongruent	38	2	blue	32	red	1	528	7	7
6.3.1	win	2020-12-16	15:27:46	VP21	6	6.1	stroop	1	blackcongruent	40	1	black	36	blue	0	416	7	7
6.3.1	win	2020-12-16	15:27:46	VP21	6	6.1	stroop	1	blueincongruent	42	2	green	36	blue	1	530	7	8
6.3.1	win	2020-12-16	15:27:46	VP21	6	6.1	stroop	1	greenincongruent	44	2	red	33	green	1	622	7	9
6.3.1	win	2020-12-16	15:27:46	VP21	6	6.1	stroop	1	blackincongruent	46	2	blue	37	black	1	600	7	10
6.3.1	win	2020-12-16	15:27:46	VP21	6	6.1	stroop	1	blackcontrol	48	3	red	36	blue	0	369	7	10
6.3.1	win	2020-12-16	15:27:46	VP21	6	6.1	stroop	1	greenincongruent	50	2	blue	33	green	1	739	7	11
6.3.1	win	2020-12-16	15:27:46	VP21	6	6.1	stroop	1	redcontrol	52	3	blue	32	red	1	443	7	11
6.3.1	win	2020-12-16	15:27:46	VP21	6	6.1	stroop	1	blackcontrol	54	3	green	37	black	1	501	7	11
6.3.1	win	2020-12-16	15:27:46	VP21	6	6.1	stroop	1	greenincongruent	56	2	black	33	green	1	572	7	12
6.3.1	win	2020-12-16	15:27:46	VP21	6	6.1	stroop	1	blackcongruent	58	1	black	37	black	1	535	8	12
6.3.1	win	2020-12-16	15:27:46	VP21	6	6.1	stroop	1	blackcontrol	60	3	blue	36	blue	0	390	8	12
6.3.1	win	2020-12-16	15:27:46	VP21	6	6.1	stroop	1	greenincongruent	62	2	blue	33	green	1	575	8	13
6.3.1	win	2020-12-16	15:27:46	VP21	6	6.1	stroop	1	blackcongruent	64	1	black	37	black	1	660	9	13
6.3.1	win	2020-12-16	15:27:46	VP21	6	6.1	stroop	1	greencongruent	66	1	green	33	green	1	418	10	13
6.3.1	win	2020-12-16	15:27:46	VP21	6	6.1	stroop	1	blackcontrol	68	3	green	37	black	1	443	10	13
6.3.1	win	2020-12-16	15:27:46	VP21	6	6.1	stroop	1	bluecontrol	70	3	green	36	blue	1	500	10	13
6.3.1	win	2020-12-16	15:27:46	VP21	6	6.1	stroop	1	redcongruent	72	1	red	32	red	1	585	11	13
6.3.1	win	2020-12-16	15:27:46	VP21	6	6.1	stroop	1	redcontrol	74	3	black	32	red	1	419	11	13
6.3.1	win	2020-12-16	15:27:46	VP21	6	6.1	stroop	1	redcongruent	76	1	red	32	red	1	363	12	13
6.3.1	win	2020-12-16	15:27:46	VP21	6	6.1	stroop	1	blackincongruent	78	2	blue	37	black	1	402	12	14
