build	computer.platform	date	time	subject	group	sessionid	blockcode	blocknum	trialcode	trialnum	congruency	stimulusitem1	response	responseCategory	correct	latency	congruentcorrect	incongruentcorrect
6.3.1	win	2020-12-13	16:56:21	VP13	5	5.2	stroop	1	blackincongruent	2	2	red	37	black	1	1194	nan	1
6.3.1	win	2020-12-13	16:56:21	VP13	5	5.2	stroop	1	blackincongruent	4	2	blue	37	black	1	617	nan	2
6.3.1	win	2020-12-13	16:56:21	VP13	5	5.2	stroop	1	redcontrol	6	3	black	32	red	1	773	nan	2
6.3.1	win	2020-12-13	16:56:21	VP13	5	5.2	stroop	1	blackcongruent	8	1	black	37	black	1	555	1	2
6.3.1	win	2020-12-13	16:56:21	VP13	5	5.2	stroop	1	redcongruent	10	1	red	32	red	1	588	2	2
6.3.1	win	2020-12-13	16:56:21	VP13	5	5.2	stroop	1	blackincongruent	12	2	green	37	black	1	689	2	3
6.3.1	win	2020-12-13	16:56:21	VP13	5	5.2	stroop	1	blackcongruent	14	1	black	37	black	1	663	3	3
6.3.1	win	2020-12-13	16:56:21	VP13	5	5.2	stroop	1	blueincongruent	16	2	red	36	blue	1	989	3	4
6.3.1	win	2020-12-13	16:56:21	VP13	5	5.2	stroop	1	blackcontrol	18	3	blue	37	black	1	739	3	4
6.3.1	win	2020-12-13	16:56:21	VP13	5	5.2	stroop	1	redincongruent	20	2	blue	32	red	1	632	3	5
6.3.1	win	2020-12-13	16:56:21	VP13	5	5.2	stroop	1	greencontrol	22	3	blue	33	green	1	580	3	5
6.3.1	win	2020-12-13	16:56:21	VP13	5	5.2	stroop	1	bluecongruent	24	1	blue	36	blue	1	734	4	5
6.3.1	win	2020-12-13	16:56:21	VP13	5	5.2	stroop	1	greenincongruent	26	2	blue	33	green	1	1037	4	6
6.3.1	win	2020-12-13	16:56:21	VP13	5	5.2	stroop	1	redcontrol	28	3	green	32	red	1	912	4	6
6.3.1	win	2020-12-13	16:56:21	VP13	5	5.2	stroop	1	greencontrol	30	3	black	33	green	1	764	4	6
6.3.1	win	2020-12-13	16:56:21	VP13	5	5.2	stroop	1	greencongruent	32	1	green	33	green	1	526	5	6
6.3.1	win	2020-12-13	16:56:21	VP13	5	5.2	stroop	1	greencontrol	34	3	red	33	green	1	524	5	6
6.3.1	win	2020-12-13	16:56:21	VP13	5	5.2	stroop	1	blueincongruent	36	2	green	36	blue	1	515	5	7
6.3.1	win	2020-12-13	16:56:21	VP13	5	5.2	stroop	1	blackcontrol	38	3	red	37	black	1	755	5	7
6.3.1	win	2020-12-13	16:56:21	VP13	5	5.2	stroop	1	bluecontrol	40	3	red	36	blue	1	2489	5	7
6.3.1	win	2020-12-13	16:56:21	VP13	5	5.2	stroop	1	blueincongruent	42	2	black	36	blue	1	642	5	8
6.3.1	win	2020-12-13	16:56:21	VP13	5	5.2	stroop	1	redcontrol	44	3	blue	32	red	1	852	5	8
6.3.1	win	2020-12-13	16:56:21	VP13	5	5.2	stroop	1	blackincongruent	46	2	blue	37	black	1	775	5	9
6.3.1	win	2020-12-13	16:56:21	VP13	5	5.2	stroop	1	blackcontrol	48	3	green	37	black	1	581	5	9
6.3.1	win	2020-12-13	16:56:21	VP13	5	5.2	stroop	1	redincongruent	50	2	black	32	red	1	747	5	10
6.3.1	win	2020-12-13	16:56:21	VP13	5	5.2	stroop	1	bluecontrol	52	3	green	36	blue	1	1866	5	10
6.3.1	win	2020-12-13	16:56:21	VP13	5	5.2	stroop	1	bluecontrol	54	3	black	36	blue	1	564	5	10
6.3.1	win	2020-12-13	16:56:21	VP13	5	5.2	stroop	1	blackcontrol	56	3	red	37	black	1	681	5	10
6.3.1	win	2020-12-13	16:56:21	VP13	5	5.2	stroop	1	blackcongruent	58	1	black	37	black	1	710	6	10
6.3.1	win	2020-12-13	16:56:21	VP13	5	5.2	stroop	1	redincongruent	60	2	green	32	red	1	779	6	11
6.3.1	win	2020-12-13	16:56:21	VP13	5	5.2	stroop	1	bluecongruent	62	1	blue	36	blue	1	873	7	11
6.3.1	win	2020-12-13	16:56:21	VP13	5	5.2	stroop	1	blackcongruent	64	1	black	37	black	1	704	8	11
6.3.1	win	2020-12-13	16:56:21	VP13	5	5.2	stroop	1	greenincongruent	66	2	red	33	green	1	1305	8	12
6.3.1	win	2020-12-13	16:56:21	VP13	5	5.2	stroop	1	greencongruent	68	1	green	33	green	1	521	9	12
6.3.1	win	2020-12-13	16:56:21	VP13	5	5.2	stroop	1	redcontrol	70	3	black	32	red	1	601	9	12
6.3.1	win	2020-12-13	16:56:21	VP13	5	5.2	stroop	1	redcongruent	72	1	red	32	red	1	694	10	12
6.3.1	win	2020-12-13	16:56:21	VP13	5	5.2	stroop	1	greenincongruent	74	2	black	33	green	1	704	10	13
6.3.1	win	2020-12-13	16:56:21	VP13	5	5.2	stroop	1	greencontrol	76	3	black	33	green	1	572	10	13
6.3.1	win	2020-12-13	16:56:21	VP13	5	5.2	stroop	1	redincongruent	78	2	black	32	red	1	557	10	14
