build	computer.platform	date	time	subject	group	sessionid	blockcode	blocknum	trialcode	trialnum	congruency	stimulusitem1	response	responseCategory	correct	latency	congruentcorrect	incongruentcorrect
6.3.1	win	2020-12-13	16:58:04	VP13	5	5.3	stroop	1	blackcongruent	2	1	black	37	black	1	1008	1	nan
6.3.1	win	2020-12-13	16:58:04	VP13	5	5.3	stroop	1	greencongruent	4	1	green	33	green	1	850	2	nan
6.3.1	win	2020-12-13	16:58:04	VP13	5	5.3	stroop	1	blackcontrol	6	3	green	37	black	1	566	2	nan
6.3.1	win	2020-12-13	16:58:04	VP13	5	5.3	stroop	1	blueincongruent	8	2	black	36	blue	1	724	2	1
6.3.1	win	2020-12-13	16:58:04	VP13	5	5.3	stroop	1	greencontrol	10	3	red	33	green	1	681	2	1
6.3.1	win	2020-12-13	16:58:04	VP13	5	5.3	stroop	1	redcontrol	12	3	blue	32	red	1	666	2	1
6.3.1	win	2020-12-13	16:58:04	VP13	5	5.3	stroop	1	bluecongruent	14	1	blue	36	blue	1	871	3	1
6.3.1	win	2020-12-13	16:58:04	VP13	5	5.3	stroop	1	blueincongruent	16	2	green	36	blue	1	623	3	2
6.3.1	win	2020-12-13	16:58:04	VP13	5	5.3	stroop	1	bluecontrol	18	3	red	36	blue	1	345	3	2
6.3.1	win	2020-12-13	16:58:04	VP13	5	5.3	stroop	1	blackincongruent	20	2	red	37	black	1	669	3	3
6.3.1	win	2020-12-13	16:58:04	VP13	5	5.3	stroop	1	bluecontrol	22	3	black	36	blue	1	355	3	3
6.3.1	win	2020-12-13	16:58:04	VP13	5	5.3	stroop	1	redincongruent	24	2	blue	32	red	1	858	3	4
6.3.1	win	2020-12-13	16:58:04	VP13	5	5.3	stroop	1	blueincongruent	26	2	red	36	blue	1	621	3	5
6.3.1	win	2020-12-13	16:58:04	VP13	5	5.3	stroop	1	greencongruent	28	1	green	33	green	1	813	4	5
6.3.1	win	2020-12-13	16:58:04	VP13	5	5.3	stroop	1	redcongruent	30	1	red	32	red	1	635	5	5
6.3.1	win	2020-12-13	16:58:04	VP13	5	5.3	stroop	1	greencontrol	32	3	black	33	green	1	575	5	5
6.3.1	win	2020-12-13	16:58:04	VP13	5	5.3	stroop	1	redincongruent	34	2	black	32	red	1	403	5	6
6.3.1	win	2020-12-13	16:58:04	VP13	5	5.3	stroop	1	greenincongruent	36	2	black	33	green	1	333	5	7
6.3.1	win	2020-12-13	16:58:04	VP13	5	5.3	stroop	1	blackincongruent	38	2	green	37	black	1	744	5	8
6.3.1	win	2020-12-13	16:58:04	VP13	5	5.3	stroop	1	bluecongruent	40	1	blue	36	blue	1	730	6	8
6.3.1	win	2020-12-13	16:58:04	VP13	5	5.3	stroop	1	redincongruent	42	2	green	32	red	1	707	6	9
6.3.1	win	2020-12-13	16:58:04	VP13	5	5.3	stroop	1	greenincongruent	44	2	red	33	green	1	943	6	10
6.3.1	win	2020-12-13	16:58:04	VP13	5	5.3	stroop	1	blackcongruent	46	1	black	37	black	1	659	7	10
6.3.1	win	2020-12-13	16:58:04	VP13	5	5.3	stroop	1	redincongruent	48	2	black	32	red	1	688	7	11
6.3.1	win	2020-12-13	16:58:04	VP13	5	5.3	stroop	1	bluecongruent	50	1	blue	33	green	0	1181	7	11
6.3.1	win	2020-12-13	16:58:04	VP13	5	5.3	stroop	1	redcongruent	52	1	red	32	red	1	754	8	11
6.3.1	win	2020-12-13	16:58:04	VP13	5	5.3	stroop	1	blueincongruent	54	2	black	36	blue	1	901	8	12
6.3.1	win	2020-12-13	16:58:04	VP13	5	5.3	stroop	1	bluecongruent	56	1	blue	36	blue	1	387	9	12
6.3.1	win	2020-12-13	16:58:04	VP13	5	5.3	stroop	1	blackcontrol	58	3	blue	37	black	1	556	9	12
6.3.1	win	2020-12-13	16:58:04	VP13	5	5.3	stroop	1	blackincongruent	60	2	blue	36	blue	0	395	9	12
6.3.1	win	2020-12-13	16:58:04	VP13	5	5.3	stroop	1	blackincongruent	62	2	green	37	black	1	262	9	13
6.3.1	win	2020-12-13	16:58:04	VP13	5	5.3	stroop	1	blackcongruent	64	1	black	37	black	1	480	10	13
6.3.1	win	2020-12-13	16:58:04	VP13	5	5.3	stroop	1	redcontrol	66	3	green	32	red	1	770	10	13
6.3.1	win	2020-12-13	16:58:04	VP13	5	5.3	stroop	1	greencongruent	68	1	green	33	green	1	748	11	13
6.3.1	win	2020-12-13	16:58:04	VP13	5	5.3	stroop	1	redcontrol	70	3	black	32	red	1	412	11	13
6.3.1	win	2020-12-13	16:58:04	VP13	5	5.3	stroop	1	blackcontrol	72	3	red	37	black	1	634	11	13
6.3.1	win	2020-12-13	16:58:04	VP13	5	5.3	stroop	1	bluecontrol	74	3	green	36	blue	1	367	11	13
6.3.1	win	2020-12-13	16:58:04	VP13	5	5.3	stroop	1	blackcontrol	76	3	green	37	black	1	358	11	13
6.3.1	win	2020-12-13	16:58:04	VP13	5	5.3	stroop	1	greencongruent	78	1	green	33	green	1	639	12	13
