build	computer.platform	date	time	subject	group	sessionid	blockcode	blocknum	trialcode	trialnum	congruency	stimulusitem1	response	responseCategory	correct	latency	congruentcorrect	incongruentcorrect
6.3.1	win	2020-12-16	15:33:22	VP21	6	6.2	stroop	1	blackcongruent	2	1	black	37	black	1	512	1	nan
6.3.1	win	2020-12-16	15:33:22	VP21	6	6.2	stroop	1	blackcontrol	4	3	blue	37	black	1	382	1	nan
6.3.1	win	2020-12-16	15:33:22	VP21	6	6.2	stroop	1	greencongruent	6	1	green	36	blue	0	538	1	nan
6.3.1	win	2020-12-16	15:33:22	VP21	6	6.2	stroop	1	greencontrol	8	3	red	33	green	1	344	1	nan
6.3.1	win	2020-12-16	15:33:22	VP21	6	6.2	stroop	1	greencontrol	10	3	blue	33	green	1	324	1	nan
6.3.1	win	2020-12-16	15:33:22	VP21	6	6.2	stroop	1	bluecongruent	12	1	blue	36	blue	1	435	2	nan
6.3.1	win	2020-12-16	15:33:22	VP21	6	6.2	stroop	1	greenincongruent	14	2	blue	36	blue	0	352	2	0
6.3.1	win	2020-12-16	15:33:22	VP21	6	6.2	stroop	1	blueincongruent	16	2	black	33	green	0	416	2	0
6.3.1	win	2020-12-16	15:33:22	VP21	6	6.2	stroop	1	greencontrol	18	3	black	33	green	1	550	2	0
6.3.1	win	2020-12-16	15:33:22	VP21	6	6.2	stroop	1	blackincongruent	20	2	green	37	black	1	542	2	1
6.3.1	win	2020-12-16	15:33:22	VP21	6	6.2	stroop	1	redcontrol	22	3	green	33	green	0	528	2	1
6.3.1	win	2020-12-16	15:33:22	VP21	6	6.2	stroop	1	blackincongruent	24	2	blue	37	black	1	817	2	2
6.3.1	win	2020-12-16	15:33:22	VP21	6	6.2	stroop	1	bluecontrol	26	3	black	36	blue	1	749	2	2
6.3.1	win	2020-12-16	15:33:22	VP21	6	6.2	stroop	1	redcongruent	28	1	red	32	red	1	513	3	2
6.3.1	win	2020-12-16	15:33:22	VP21	6	6.2	stroop	1	greencongruent	30	1	green	36	blue	0	414	3	2
6.3.1	win	2020-12-16	15:33:22	VP21	6	6.2	stroop	1	bluecontrol	32	3	green	36	blue	1	565	3	2
6.3.1	win	2020-12-16	15:33:22	VP21	6	6.2	stroop	1	bluecontrol	34	3	red	36	blue	1	355	3	2
6.3.1	win	2020-12-16	15:33:22	VP21	6	6.2	stroop	1	blackcontrol	36	3	red	37	black	1	448	3	2
6.3.1	win	2020-12-16	15:33:22	VP21	6	6.2	stroop	1	redincongruent	38	2	green	32	red	1	562	3	3
6.3.1	win	2020-12-16	15:33:22	VP21	6	6.2	stroop	1	blueincongruent	40	2	red	36	blue	1	621	3	4
6.3.1	win	2020-12-16	15:33:22	VP21	6	6.2	stroop	1	blackincongruent	42	2	red	37	black	1	462	3	5
6.3.1	win	2020-12-16	15:33:22	VP21	6	6.2	stroop	1	bluecontrol	44	3	red	36	blue	1	535	3	5
6.3.1	win	2020-12-16	15:33:22	VP21	6	6.2	stroop	1	blackincongruent	46	2	blue	37	black	1	493	3	6
6.3.1	win	2020-12-16	15:33:22	VP21	6	6.2	stroop	1	bluecongruent	48	1	blue	36	blue	1	409	4	6
6.3.1	win	2020-12-16	15:33:22	VP21	6	6.2	stroop	1	redcongruent	50	1	red	33	green	0	506	4	6
6.3.1	win	2020-12-16	15:33:22	VP21	6	6.2	stroop	1	blueincongruent	52	2	green	36	blue	1	608	4	7
6.3.1	win	2020-12-16	15:33:22	VP21	6	6.2	stroop	1	redcontrol	54	3	blue	32	red	1	484	4	7
6.3.1	win	2020-12-16	15:33:22	VP21	6	6.2	stroop	1	blackcontrol	56	3	green	37	black	1	618	4	7
6.3.1	win	2020-12-16	15:33:22	VP21	6	6.2	stroop	1	blackcongruent	58	1	black	36	blue	0	366	4	7
6.3.1	win	2020-12-16	15:33:22	VP21	6	6.2	stroop	1	bluecongruent	60	1	blue	36	blue	1	493	5	7
6.3.1	win	2020-12-16	15:33:22	VP21	6	6.2	stroop	1	redincongruent	62	2	blue	32	red	1	474	5	8
6.3.1	win	2020-12-16	15:33:22	VP21	6	6.2	stroop	1	greenincongruent	64	2	black	33	green	1	601	5	9
6.3.1	win	2020-12-16	15:33:22	VP21	6	6.2	stroop	1	redcontrol	66	3	black	32	red	1	555	5	9
6.3.1	win	2020-12-16	15:33:22	VP21	6	6.2	stroop	1	greenincongruent	68	2	red	33	green	1	555	5	10
6.3.1	win	2020-12-16	15:33:22	VP21	6	6.2	stroop	1	blackcongruent	70	1	black	37	black	1	545	6	10
6.3.1	win	2020-12-16	15:33:22	VP21	6	6.2	stroop	1	redcongruent	72	1	red	32	red	1	453	7	10
6.3.1	win	2020-12-16	15:33:22	VP21	6	6.2	stroop	1	blackcontrol	74	3	green	37	black	1	378	7	10
6.3.1	win	2020-12-16	15:33:22	VP21	6	6.2	stroop	1	greencongruent	76	1	green	33	green	1	435	8	10
6.3.1	win	2020-12-16	15:33:22	VP21	6	6.2	stroop	1	redcontrol	78	3	green	32	red	1	609	8	10
